Folder: ML-WE

Note: README.md
# Machine_Learning_MEA_Optimization
To run the code, we suggest that users install Anaconda 3 in windows 10 and install the following necessary python packages with the same or higher version to set up a compatible environment: Python 3.7; Jupyter 1.0.0; numpy 1.20.2; pandas 1.3.0; scikit-learn: 0.22.1; matplotlib 3.4.2; shap 0.39.0; tensorflow-gpu 2.4.1; tensorflow-estimator 2.4.0; keras 2.4.3; keras-metrics 1.1.0; catboost 0.23.2; lightgbm 3.2.1; xgboost 1.0.2. 
For the .R scripts, please install the required packages illustrated in beginning of each script in the form of "library(xx)"
interaction.R/measure_importance.R/min_depth_distribution.R/min_depth_interactions.R are scripts from DOI: 10.1126/sciadv.abf4130.

File: datatest.csv
membrane ew(mol.g-1),Membrane Thickness (¦Ìm),GDL,GDE(1 for GDE 0 for CCM),catalyst,Dielectric Constant (C  N-1 M-2),Flash Point(¡æ),Stirring Method (0 for Mechanical Stirring 1 for Ultrasound),Stirring Temp (¡æ),Flow Rate (mL min-1),Water Content (wt%),Nafion EW (mol g-1),Anodic Platinum Loading Amount (mgPt cm-2),Cathodic Platinum Loading Amount (mgPt cm-2),Drying Temperature (¡æ),RH (%),I/C,Cell Temperature (¡æ),Anode Flow Rate (sccm),Cathode Flow Rate (sccm),Backpressure (Mpa),Active Area (cm2),Solid Content (wt%),Power Density at 0.6V (mW cm-2),Pt Consumption per kW@0.65V (mgpt kW-1),PD06_CL,PTUTIL_CL,Open Circuit Voltage (V),voltage 100mA.cm-2,voltage 200mA.cm-2,voltage 300mA.cm-2,voltage 400mA.cm-2,voltage 500mA.cm-2,voltage 600mA.cm-2,voltage 700mA.cm-2,voltage 800mA.cm-2,voltage 900mA.cm-2,voltage 1000mA.cm-2,voltage 1100mA.cm-2,voltage 1200mA.cm-2,voltage 1300mA.cm-2,voltage 1400mA.cm-2,voltage 1500mA.cm-2,voltage 1600mA.cm-2,voltage 1700mA.cm-2,voltage 1800mA.cm-2,voltage 1900mA.cm-2,voltage 2000mA.cm-2,voltage 2100mA.cm-2,voltage 2200mA.cm-2,voltage 2300mA.cm-2,voltage 2400mA.cm-2,voltage 2500mA.cm-2,voltage 2600mA.cm-2,voltage 2700mA.cm-2,voltage 2800mA.cm-2
1100,25,29bc,1,0.6,18.3,12,0,0,0.2,0.27,1100,0.05,0.1,95,100,0.54,80,300,1500,0.2,6.25,0.045,786.5,0.19,0,1,0.93,0.835,0.8,0.78,0.76,0.745,0.725,0.715,0.695,0.675,0.655,0.645,0.62,0.605,0.585,0.565,0.54,0.525,0.505,0.49,0.475,0.45,0.435,0.41,0.39,0.36,0.335,0.31,0.28
1100,25,29bc,1,0.6,18.3,12,0,0,0.2,0.27,1100,0.05,0.15,95,100,0.67,80,300,1500,0.2,6.25,0.045,1070,0.19,1,1,0.95,0.86,0.835,0.82,0.8,0.785,0.775,0.76,0.745,0.73,0.715,0.705,0.69,0.67,0.66,0.645,0.63,0.615,0.595,0.58,0.56,0.54,0.52,0.495,0.47,0.445,0.42,0.4,0.34
1100,25,29bc,1,0.6,18.3,12,0,0,0.2,0.27,1100,0.1,0.2,95,100,0.54,80,300,1500,0.2,6.25,0.045,1165,0.26,1,0,0.98,0.875,0.85,0.835,0.815,0.805,0.785,0.775,0.765,0.75,0.735,0.725,0.71,0.7,0.68,0.67,0.655,0.64,0.62,0.605,0.59,0.575,0.565,0.54,0.53,0.505,0.48,0.45,0.42
1100,15,29bc,1,0.6,20.7,-20,0,0,0.4,0.23,1100,0.1,0.2,95,100,0.43,80,300,1500,0.2,6.25,0.045,1114.6,0.27,1,0,0.96,0.865,0.84,0.825,0.81,0.795,0.78,0.765,0.755,0.735,0.725,0.715,0.705,0.69,0.67,0.66,0.645,0.63,0.615,0.59,0.575,0.555,0.535,0.525,0.5,0.475,0.445,0.42,0.4
1100,15,29bc,1,0.6,18.3,12,0,0,0.2,0.27,1100,0.1,0.2,95,100,0.54,80,300,1500,0.2,6.25,0.045,1054.3,0.28,1,0,0.96,0.865,0.845,0.83,0.815,0.795,0.785,0.765,0.755,0.735,0.725,0.71,0.695,0.68,0.665,0.65,0.63,0.61,0.595,0.575,0.555,0.54,0.515,0.495,0.47,0.44,0.415,0.395,0.18
1100,15,29bc,1,0.6,18.3,12,0,0,0.4,0.27,1100,0.1,0.2,95,100,0.54,80,300,1500,0.2,6.25,0.045,990,0.3,0,0,0.95,0.875,0.855,0.845,0.825,0.805,0.785,0.775,0.755,0.735,0.72,0.71,0.69,0.67,0.65,0.63,0.61,0.59,0.57,0.56,0.545,0.525,0.5,0.48,0.46,0.435,0.41,0.38,0.35
1100,8,29bc,1,0.6,18.3,12,0,0,0.2,0.27,1100,0.05,0.1,95,100,0.54,70,200,500,0,6.25,0.045,480,0.31,0,0,0.91,0.79,0.755,0.73,0.705,0.68,0.655,0.625,0.6,0.56,0.525,0.485,0.435,0.385,0.3,0.17,,,,,,,,,,,,,
1100,25,29bc,1,0.6,17.1,35,0,0,0.6,0.206837,1100,0.1,0.2,95,100,0.54,80,300,1500,0.2,6.25,0.0285,907.5,0.33,0,0,0.96,0.855,0.825,0.8,0.785,0.77,0.745,0.73,0.72,0.705,0.69,0.675,0.66,0.64,0.625,0.605,0.59,0.57,0.56,0.535,0.52,0.495,0.475,0.455,0.43,0.41,0.385,0.36,0.33
1100,8,29bc,1,0.6,18.3,12,0,0,0.2,0.27,1100,0.05,0.15,95,100,0.54,70,200,500,0,6.25,0.045,570,0.35,0,0,0.9,0.805,0.775,0.75,0.73,0.71,0.685,0.665,0.645,0.615,0.585,0.565,0.53,0.495,0.455,0.415,0.38,,,,,,,,,,,,
1100,25,29bc,1,0.6,25.7,12,1,0,0.8,0.19,1100,0.1,0.2,95,100,0.33,80,300,1500,0.2,6.25,0.048,840,0.36,0,0,0.95,0.845,0.805,0.8,0.78,0.755,0.735,0.715,0.705,0.685,0.665,0.655,0.635,0.62,0.6,0.585,0.57,0.545,0.53,0.51,0.48,0.46,0.43,0.41,0.385,0.35,0.325,0.29,0.26
1100,25,29bc,1,0.6,25.7,12,1,0,0.8,0.19,1100,0.1,0.2,95,100,0.54,80,300,1500,0.2,6.25,0.048,750,0.4,0,0,0.94,0.85,0.82,0.8,0.78,0.76,0.74,0.72,0.7,0.68,0.66,0.64,0.61,0.59,0.57,0.54,0.48,0.45,0.42,0.39,0.38,0.36,0.34,0.32,0.29,0.27,0.24,0.2,
1100,25,29bc,1,0.6,17.1,35,0,0,0.6,0.196731,1100,0.1,0.2,95,100,0.43,80,300,1500,0.2,6.25,0.0277,660,0.45,0,0,0.93,0.835,0.79,0.765,0.735,0.71,0.69,0.675,0.65,0.635,0.615,0.6,0.58,0.56,0.535,0.51,0.49,0.47,0.445,0.425,0.4,0.375,0.35,0.32,0.29,0.26,0.225,0.195,0.15
1100,8,29bc,1,0.6,18.3,12,0,0,0.2,0.27,1100,0.1,0.2,95,100,0.54,70,200,500,0,6.25,0.045,635.25,0.47,0,0,0.93,0.82,0.785,0.77,0.75,0.725,0.71,0.69,0.665,0.64,0.62,0.59,0.56,0.525,0.485,0.445,0.39,,,,,,,,,,,,
1100,25,29bc,1,0.6,20.7,-20,0,0,0.6,0.3,1100,0.1,0.2,95,100,0.43,90,200,500,0,6.25,0.045,605,0.5,0,0,0.98,0.82,0.785,0.76,0.74,0.72,0.7,0.68,0.655,0.635,0.605,0.58,0.55,0.515,0.475,0.425,0.38,,,,,,,,,,,,
1100,25,29bc,1,0.6,20.7,-20,0,0,0.4,0.3,1100,0.2,0.4,95,100,0.43,70,300,1500,0.2,6.25,0.045,1149.5,0.52,1,0,0.98,0.895,0.865,0.845,0.83,0.82,0.8,0.785,0.775,0.76,0.745,0.73,0.715,0.705,0.69,0.675,0.655,0.645,0.625,0.605,0.585,0.57,0.545,0.525,0.5,0.475,0.455,0.425,0.4
1100,25,29bc,1,0.6,20.7,-20,0,0,0.4,0.3,1100,0.2,0.4,95,100,0.43,90,300,1500,0.2,6.25,0.045,1140,0.53,1,0,0.97,0.88,0.86,0.84,0.83,0.81,0.79,0.78,0.77,0.76,0.74,0.72,0.71,0.7,0.68,0.66,0.65,0.64,0.61,0.6,0.58,0.57,0.54,0.52,0.5,0.48,0.455,0.42,0.175
1100,25,29bc,1,0.6,18.3,12,0,0,0.2,0.27,1100,0.2,0.4,95,100,0.54,80,300,1500,0.2,6.25,0.045,1080,0.56,1,0,0.98,0.895,0.865,0.845,0.825,0.81,0.795,0.785,0.765,0.755,0.735,0.725,0.705,0.69,0.675,0.655,0.64,0.62,0.6,0.585,0.56,0.54,0.52,0.5,0.47,0.44,0.415,0.385,0.35
1100,25,29bc,1,0.6,20.7,-20,0,0,0.6,0.3,1100,0.2,0.4,95,100,0.43,70,300,1500,0.1,6.25,0.045,1011,0.59,1,0,0.99,0.875,0.845,0.83,0.81,0.795,0.775,0.765,0.75,0.735,0.715,0.705,0.69,0.67,0.655,0.635,0.62,0.595,0.575,0.555,0.535,0.51,0.48,0.46,0.425,0.395,0.355,0.32,0.28
1100,25,29bc,1,0.6,41.2,111.1,0,0,0.6,0.13,1100,0.2,0.4,95,100,0.43,80,300,1500,0.2,6.25,0.045,968,0.62,0,0,0.95,0.865,0.835,0.815,0.795,0.78,0.765,0.75,0.735,0.725,0.705,0.69,0.675,0.66,0.645,0.625,0.605,0.59,0.57,0.545,0.525,0.495,0.47,0.42,0.385,0.35,0.305,0.265,0.21
1100,25,29bc,1,0.6,18.3,12,0,0,0.2,0.27,1100,0.2,0.2,95,100,0.54,70,200,500,0,6.25,0.045,635.2,0.63,0,0,0.95,0.825,0.79,0.77,0.75,0.725,0.71,0.69,0.67,0.645,0.62,0.59,0.565,0.53,0.495,0.455,0.39,,,,,,,,,,,,
1100,25,29bc,1,0.6,20.7,-20,0,0,0.4,0.3,750,0.2,0.4,95,100,0.43,70,200,500,0,6.25,0.044,930,0.65,0,0,0.995,0.885,0.855,0.835,0.815,0.785,0.77,0.75,0.73,0.715,0.695,0.675,0.665,0.65,0.63,0.61,0.59,0.58,0.565,0.545,0.525,0.495,0.47,0.455,0.43,0.405,0.375,0.34,
1100,25,29bc,1,0.6,20.7,-20,0,0,0.6,0.3,1100,0.2,0.4,95,100,0.43,70,300,1500,0,6.25,0.045,786.5,0.76,0,0,0.97,0.845,0.815,0.795,0.775,0.765,0.74,0.725,0.71,0.69,0.67,0.65,0.63,0.605,0.575,0.555,0.53,0.495,0.455,0.415,0.36,,,,,,,,
1100,25,29bc,1,0.6,18.3,12,0,0,0.3,0.16,1100,0.2,0.3,95,100,0.43,70,200,500,0,6.25,0.048,626.85,0.8,0,0,0.972,0.826,0.7935,0.771,0.75,0.73,0.71,0.69,0.669,0.646,0.6205,0.5735,0.5605,0.525,0.485,,,,,,,,,,,,,,
1100,25,29bc,1,0.6,38.8,12.8,0,0,0.2,0.27,1100,0.2,0.4,95,100,0.43,70,200,500,0,6.25,0.05,693.4,0.87,0,0,0.972,0.847,0.816,0.791,0.771,0.751,0.732,0.714,0.693,0.674,0.65,0.62,0.586,0.545,0.49,0.419,0.324,,,,,,,,,,,,
1100,25,29bc,1,0.6,20.7,-20,0,0,0.2,0.3,1100,0.2,0.4,95,100,0.43,70,200,500,0,6.25,0.045,683,0.88,0,0,0.959,0.8385,0.8085,0.7875,0.768,0.7485,0.7285,0.7075,0.686,0.6635,0.6385,0.61,0.5785,0.543,0.5015,,,,,,,,,,,,,,
1100,25,29bc,1,0.6,20.7,-20,0,0,0.4,0.3,1100,0.2,0.4,95,100,0.43,70,200,500,0,6.25,0.045,659.4,0.91,0,0,0.966,0.8325,0.8015,0.7805,0.7605,0.742,0.7235,0.7035,0.6805,0.6545,0.63,0.5995,0.5665,0.528,0.484,,,,,,,,,,,,,,
1100,25,29bc,1,0.6,18.3,12,0,0,0.1,0.27,1100,0.2,0.4,95,100,0.43,70,200,500,0,6.25,0.05,654.5,0.92,0,0,0.96,0.83,0.8,0.775,0.755,0.735,0.715,0.695,0.67,0.655,0.63,0.595,0.565,0.525,0.475,0.41,0.34,,,,,,,,,,,,
1100,25,29bc,1,0.6,18.3,12,0,0,0.2,0.27,1100,0.2,0.4,95,100,0.54,70,200,500,0,6.25,0.045,635.2,0.94,0,0,0.95,0.83,0.8,0.79,0.77,0.74,0.715,0.695,0.67,0.65,0.62,0.59,0.555,0.505,0.46,0.39,0.29,,,,,,,,,,,,
1100,25,29bc,0,0.6,18.3,12,0,0,0.8,0.27,1100,0.2,0.4,95,100,0.43,60,200,500,0,6.25,0.05,624,0.96,0,0,0.963,0.896,0.872,0.843,0.809,0.796,0.744,0.701,0.663,0.63,0.614,0.574,0.534,0.489,0.439,0.38,0.29,0.165,,,,,,,,,,,
1100,15,29bc,1,0.6,18.3,12,0,0,0.2,0.27,1100,0.1,0.2,95,100,4,80,300,1500,0.2,6.25,0.045,300,1,0,0,0.94,0.79,0.73,0.69,0.64,0.6,0.56,0.51,0.46,0.39,0.3,0.21,0.16,,,,,,,,,,,,,,,,
1100,25,29bc,1,0.6,20.7,-20,0,0,0.6,0.3,1100,0.3,0.2,95,100,0.43,70,200,500,0,6.25,0.045,478.4,1.05,0,0,0.928,0.799,0.7625,0.7345,0.70925,0.68,0.657,0.628,0.598,0.5585,0.517,0.466,0.4085,0.3465,0.225,,,,,,,,,,,,,,
1100,25,29bc,1,0.6,20.7,-20,0,0,0.5,0.25,750,0.2,0.4,95,100,0.33,70,200,500,0,6.25,0.036,540,1.11,0,0,0.965,0.83,0.79,0.76,0.735,0.715,0.69,0.665,0.64,0.6,0.575,0.53,0.48,0.415,0.33,0.2,,,,,,,,,,,,,
1100,25,29bc,1,0.6,20.7,-20,0,0,0.3,0.16,1100,0.2,0.5,95,100,0.43,70,200,500,0,6.25,0.048,610,1.15,0,0,0.958,0.838,0.802,0.7745,0.752,0.731,0.71,0.687,0.666,0.636,0.609,0.572,0.536,0.489,0.417,0.328,,,,,,,,,,,,,
1100,25,29bc,1,0.6,25.7,12,1,0,0.8,0.32,1100,0.2,0.2,95,100,0.43,70,200,500,0,6.25,0.06,330.3,1.21,0,0,0.933,0.768,0.712,0.686,0.65,0.618,0.583,0.531,0.495,0.462,0.388,0.315,0.249,0.146,,,,,,,,,,,,,,,
1100,25,29bc,1,0.6,32.6,12,0,0,0.8,0.29,1100,0.4,0.2,95,100,0.44,70,200,500,0,6.25,0.05,483.2,1.24,0,0,0.936,0.8045,0.768,0.742,0.7165,0.691,0.664,0.6345,0.604,0.5695,0.5315,0.4955,0.4515,0.4,0.3205,,,,,,,,,,,,,,
1100,25,29bc,1,0.6,25.7,12,1,0,0.7,0.32,1100,0.2,0.5,95,100,0.43,70,200,500,0,6.25,0.06,538.2,1.3,0,0,0.936,0.824,0.789,0.763,0.739,0.715,0.689,0.661,0.6315,0.598,0.556,0.515,0.468,0.422,0.358,,,,,,,,,,,,,,
1100,25,29bc,1,0.6,18.3,12,1,0,0.8,0.27,1100,0.2,0.55,95,100,0.43,70,200,500,0,6.25,0.05,549,1.37,0,0,0.946,0.825,0.791,0.762,0.7355,0.716,0.694,0.67,0.644,0.61,0.583,0.55,0.503,0.447,0.35,,,,,,,,,,,,,,
1100,25,29bc,1,0.6,25.7,12,1,0,0.8,0.32,1100,0.2,0.4,35,100,0.43,70,200,500,0,6.25,0.06,424.55,1.41,0,0,0.968,0.805,0.7635,0.7325,0.703,0.673,0.6415,0.6065,0.572,0.5265,0.476,0.414,0.3445,0.267,0.1995,,,,,,,,,,,,,,
1100,25,29bc,1,0.6,20.7,-20,0,0,0.6,0.16,1100,0.2,0.6,95,100,0.43,70,200,500,0,6.25,0.048,544.5,1.47,0,0,0.95,0.832,0.799,0.773,0.748,0.723,0.698,0.67,0.639,0.605,0.568,0.524,0.466,0.397,0.316,,,,,,,,,,,,,,
1100,25,29bc,1,0.6,17.8,35,0,0,0.8,0.19,1100,0.5,0.2,95,100,0.46,70,200,500,0,6.25,0.033,425.6,1.64,0,0,0.954,0.7885,0.748,0.718,0.691,0.6615,0.6335,0.608,0.5755,0.543,0.511,0.4745,0.4445,0.404,0.3575,,,,,,,,,,,,,,
1100,25,29bc,1,0.6,17.8,35,0,25,1,0.19,1100,0.4,0.2,95,100,0.46,70,200,500,0,6.25,0.033,357.9,1.68,0,0,0.943,0.7675,0.7225,0.6895,0.658,0.6285,0.5965,0.5735,0.5385,0.503,0.466,0.4235,0.3755,0.3205,0.257,,,,,,,,,,,,,,
1100,25,29bc,1,0.6,25.7,12,1,0,0.8,0.25,1100,0.4,0.4,95,100,0.43,70,200,500,0,6.25,0.045,422.1,1.9,0,0,0.918,0.804,0.763,0.73,0.699,0.67,0.639,0.603,0.564,0.5175,0.467,0.407,0.336,0.25,,,,,,,,,,,,,,,
1100,25,29bc,1,0.6,25.7,12,1,0,1,0.32,1100,0.1,0.2,95,100,0.43,70,200,500,0,6.25,0.06,140,2.14,0,0,0.886,0.725,0.649,0.514,0.439,0.355,0.257,0.137,0.05,0,0,0,0,0,0,,,,,,,,,,,,,,